File: chemistry/dsc_format/hk320-pdms26k.csv
Time / min,Temp / dC,DSC / microW mg-1,DDSC / microW mg-1min-1
0,36.6715,-0.0559006,4.85102
0.116667,36.5943,-46.6796,770.326
0.233333,35.7444,-29.7555,-1353.9
0.35,33.6147,207.589,-2277.98
0.466667,30.4256,457.033,-1856.69
0.583333,26.5957,637.137,-1388.19
0.7,22.6578,783.881,-757.555
0.816667,19.4119,769.496,976.226
0.933333,17.218,591.686,1798.46
1.05,15.8733,386.838,1552.48
1.16667,14.9627,244.23,861.167
1.28333,14.1597,180.153,286.721
1.4,13.301,167.567,-13.3686
1.51667,12.3594,175.679,-91.651
1.63333,11.3599,185.194,-65.9466
1.75,10.333,190.174,-21.5358
1.86667,9.29421,190.839,4.28235
1.98333,8.24378,190.052,8.49102
2.1,7.18312,189.059,7.4626
2.21667,6.11463,188.411,3.74399
2.33333,5.03726,188.093,2.05316
2.45,3.95223,187.895,1.87752
2.56667,2.852,187.632,3.40746
2.68333,1.74663,187.091,6.03296
2.8,0.637417,186.286,7.44417
2.91667,-0.47515,185.417,7.45646
3.03333,-1.59296,184.451,9.21853
3.15,-2.71967,183.187,15.6101
3.26667,-3.84723,182.416,6.86528
3.38333,-4.97604,180.468,15.1913
3.5,-6.10524,178.819,13.586
3.61667,-7.24306,177.204,14.4118
3.73333,-8.38272,175.438,15.8758
3.85,-9.52141,173.499,17.2453
3.96667,-10.6596,171.536,16.4629
4.08333,-11.7992,169.486,19.0786
4.2,-12.9453,167.191,18.6012
4.31667,-14.0898,164.978,19.8732
4.43333,-15.2328,162.627,20.4239
4.55,-16.374,160.206,21.0781
4.66667,-17.5212,157.765,20.8018
4.78333,-18.6711,155.317,21.5813
4.9,-19.8186,152.777,21.7729
5.01667,-20.9641,150.217,22.145
5.13333,-22.1081,147.62,22.4553
5.25,-23.2613,144.978,22.9118
5.36667,-24.4122,142.276,23.3847
5.48333,-25.5605,139.534,23.6054
5.6,-26.7053,136.759,23.9271
5.71667,-27.853,133.954,24.1196
5.83333,-29.0068,131.107,24.5552
5.95,-30.1566,128.232,24.8041
6.06667,-31.3043,125.328,25.0546
6.18333,-32.4491,122.39,25.3208
6.3,-33.5997,119.428,25.462
6.41667,-34.7519,116.434,25.801
6.53333,-35.9023,113.399,26.1539
6.65,-37.0485,110.336,26.3991
6.76667,-38.1909,107.227,26.6681
6.88333,-39.3431,104.099,27.0468
7,-40.4943,100.99,27.2994
7.11667,-41.6426,97.7792,27.9229
7.23333,-42.7873,94.5453,27.6597
7.35,-43.9302,91.208,33.4204
7.46667,-45.084,87.5706,24.9969
7.58333,-46.2341,84.6635,25.9803
7.7,-47.3812,81.4108,29.7677
7.81667,-48.5248,77.9917,19.2096
7.93333,-49.6676,74.9912,31.2022
8.05,-50.8207,71.4113,29.642
8.16667,-51.9698,67.9237,30.607
8.28333,-53.1159,64.3153,31.4155
8.4,-54.259,60.8108,29.4516
8.51667,-55.4016,57.3188,30.3769
8.63333,-56.5542,53.7983,29.6551
8.75,-57.7025,50.2166,31.6673
8.86667,-58.8469,46.4652,32.0644
8.98333,-59.9872,42.7429,32.0837
9.1,-61.1259,38.8381,40.555
9.21667,-62.2777,35.455,29.4402
9.33333,-63.424,31.5854,30.4371
9.45,-64.559,28.1418,32.229
9.56667,-65.6726,23.6884,45.3659
9.68333,-66.7545,17.539,59.4617
9.8,-67.8134,9.93624,69.5879
9.91667,-68.8323,1.40028,74.959
10.0333,-69.8099,-7.46275,76.4028
10.15,-70.7459,-16.5032,78.1495
10.2667,-71.641,-25.4229,74.3738
10.3833,-72.4968,-33.8862,72.0566
10.5,-73.3219,-42.0382,67.5677
10.6167,-74.117,-49.419,58.1696
10.7333,-74.8772,-55.5342,47.7298
10.85,-75.6037,-60.6404,31.4997
10.9667,-76.2991,-61.8954,2.68896
11.0833,-76.9638,-59.5309,-49.5969
11.2,-77.5982,-49.9375,-123.344
11.3167,-78.203,-30.3062,-219.109
11.4333,-78.7795,1.80079,-329.459
11.55,-79.3347,45.4521,-409.115
11.6667,-79.8683,94.897,-417.71
11.7833,-80.379,138.947,-313.502
11.9,-80.8732,164.672,-107.427
12.0167,-81.3527,162.461,149.306
12.1333,-81.8206,130.457,374.874
12.25,-82.2774,77.6377,485.646
12.3667,-82.7195,19.023,510.6
12.4833,-83.1458,-36.8157,434.794
12.6,-83.5528,-81.1405,318.682
12.7167,-83.9409,-111.809,214.385
12.8333,-84.3119,-131.981,138.345
12.95,-84.6665,-145.013,92.7406
13.0667,-85.007,-153.976,63.3607
13.1833,-85.336,-160.587,51.1522
13.3,-85.6558,-165.93,41.7163
13.4167,-85.9635,-170.472,36.4229
13.5333,-86.2593,-174.383,31.8427
13.65,-86.5428,-176.961,-5.89417
13.7667,-86.784,-174.574,7.97333
13.8833,-86.9365,-182.526,120.171
14,-87.0096,-198.633,133.331
14.1167,-87.0427,-211.104,80.6711
14.2333,-87.0606,-217.872,40.9177
14.35,-87.0717,-221.263,23.0369
14.4667,-87.0786,-223.559,16.6734
14.5833,-87.0834,-225.28,12.8266
14.7,-87.0862,-226.623,10.501
14.8167,-87.0883,-227.759,8.58405
14.9333,-87.0889,-228.626,6.33699
15.05,-87.0881,-229.363,6.30956
15.1667,-87.086,-230.134,7.51428
15.2833,-87.0815,-231.099,8.22056
15.4,-87.0766,-231.886,4.62646
15.5167,-87.0709,-232.434,5.07081
15.6333,-87.0651,-233.062,5.79464
15.75,-87.0583,-233.608,3.56186
15.8667,-87.0511,-234.099,4.49443
15.9833,-87.0454,-234.528,3.09263
16.1,-87.0396,-234.86,3.1915
16.2167,-87.0341,-235.21,2.86475
16.3333,-87.0291,-235.54,2.41752
16.45,-87.0247,-235.808,1.49386
16.5667,-87.0204,-235.676,-40.4391
16.6833,-86.9726,-223.583,-87.8665
16.8,-86.7643,-226.101,142.469
16.9167,-86.3642,-251.809,262.179
17.0333,-85.829,-281.959,226.931
17.15,-85.2312,-303.339,137.459
17.2667,-84.6291,-314.259,55.9224
17.3833,-84.0331,-317.666,11.1912
17.5,-83.446,-317.787,-1.83689
17.6167,-82.8638,-317.439,-2.69336
17.7333,-82.2825,-317.299,0.152349
17.85,-81.7012,-317.404,0.976784
17.9667,-81.1186,-317.502,0.26125
18.0833,-80.5351,-317.406,-2.28247
18.2,-79.9516,-317,-3.51616
18.3167,-79.3676,-316.505,-5.60734
18.4333,-78.7874,-315.686,-7.90109
18.55,-78.2128,-314.68,-8.66404
18.6667,-77.6376,-313.721,-7.53688
18.7833,-77.0619,-312.814,-8.50903
18.9,-76.4855,-311.736,-9.12132
19.0167,-75.908,-310.72,-8.39437
19.1333,-75.3294,-309.753,-8.49647
19.25,-74.7515,-308.717,-8.58851
19.3667,-74.1727,-307.748,-8.40847
19.4833,-73.5928,-306.897,-6.30324
19.6,-73.0114,-306.187,-6.62603
19.7167,-72.438,-305.48,-5.1465
19.8333,-71.8661,-304.952,-4.53033
19.95,-71.2932,-304.455,-3.36954
20.0667,-70.7184,-304.095,-2.57366
20.1833,-70.1427,-303.8,-2.49951
20.3,-69.5662,-303.5,-2.23601
20.4167,-68.9894,-303.311,-0.567253
20.5333,-68.4118,-303.28,0.392182
20.65,-67.8315,-303.336,0.121644
20.7667,-67.252,-303.311,0.099357
20.8833,-66.6751,-303.425,1.22166
21,-66.1034,-303.623,1.79403
21.1167,-65.531,-303.903,2.93168
21.2333,-64.9571,-304.311,4.42209
21.35,-64.383,-304.829,4.32731
21.4667,-63.8068,-305.391,5.74298
21.5833,-63.2304,-306.172,6.53458
21.7,-62.6533,-307.017,7.73219
21.8167,-62.0758,-308.02,8.96078
21.9333,-61.497,-309.178,12.1843
22.05,-60.9192,-310.948,7.07689
22.1667,-60.3474,-312.316,20.2378
22.2833,-59.7747,-314.471,18.9632
22.4,-59.2,-316.859,22.0747
22.5167,-58.6245,-319.577,24.9151
22.6333,-58.0492,-322.757,29.9076
22.75,-57.4727,-326.573,35.5064
22.8667,-56.8962,-331.037,41.7738
22.9833,-56.3186,-336.392,50.6382
23.1,-55.7404,-342.816,60.1102
23.2167,-55.1627,-350.521,72.3788
23.3333,-54.5913,-359.745,85.6957
23.45,-54.0194,-370.633,101.455
23.5667,-53.4474,-383.374,116.13
23.6833,-52.8744,-397.653,127.6
23.8,-52.3014,-412.8,129.419
23.9167,-51.7273,-427.563,118.182
24.0333,-51.1517,-439.033,68.5451
24.15,-50.5743,-442.141,-20.857
24.2667,-49.993,-433.187,-149.13
24.3833,-49.4096,-407.258,-271.391
24.5,-48.8288,-371.337,-325.901
24.6167,-48.2457,-333.583,-283.615
24.7333,-47.6623,-305.128,-202.463
24.85,-47.0803,-285.895,-133.414
24.9667,-46.4996,-272.898,-84.0234
25.0833,-45.919,-264.75,-56.5939
25.2,-45.3389,-259.229,-40.7401
25.3167,-44.758,-255.29,-27.7393
25.4333,-44.1773,-252.659,-18.6975
25.55,-43.5997,-250.774,-14.4251
25.6667,-43.0246,-249.234,-10.9503
25.7833,-42.449,-248.12,-8.99077
25.9,-41.8728,-247.012,-9.13949
26.0167,-41.2959,-245.957,-9.54958
26.1333,-40.7169,-244.967,-8.07952
26.25,-40.1373,-244.002,-9.02217
26.3667,-39.5566,-242.977,-8.61276
26.4833,-38.9758,-241.988,-8.44174
26.6,-38.3943,-240.998,-8.39824
26.7167,-37.818,-240.005,-8.4923
26.8333,-37.2427,-239.02,-8.46599
26.95,-36.6659,-238.037,-8.32541
27.0667,-36.0884,-237.07,-8.30494
27.1833,-35.5103,-236.11,-8.08433
27.3,-34.9314,-235.17,-8.06831
27.4167,-34.3515,-234.222,-8.15812
27.5333,-33.7706,-233.264,-8.18632
27.65,-33.1891,-232.313,-8.11534
27.7667,-32.6095,-231.358,-8.23637
27.8833,-32.0332,-230.405,-8.10173
28,-31.4571,-229.457,-8.17772
28.1167,-30.8803,-228.506,-8.12854
28.2333,-30.3024,-227.551,-8.24763
28.35,-29.7235,-226.594,-8.23719
28.4667,-29.1441,-225.631,-8.10316
28.5833,-28.5641,-224.692,-8.05106
28.7,-27.9831,-223.752,-7.97931
28.8167,-27.4013,-222.825,-8.02373
28.9333,-26.8263,-221.891,-7.97435
29.05,-26.2492,-220.966,-7.87635
29.1667,-25.672,-220.047,-7.87307
29.2833,-25.094,-219.136,-7.8265
29.4,-24.515,-218.232,-7.67845
29.5167,-23.935,-217.322,-7.78101
29.6333,-23.354,-216.415,-7.73869
29.75,-22.7729,-215.525,-7.63987
29.8667,-22.1905,-214.629,-7.6456
29.9833,-21.6129,-213.738,-7.65604
30.1,-21.0362,-212.836,-7.73741
30.2167,-20.4585,-211.945,-7.62989
30.3333,-19.88,-211.064,-7.56096
30.45,-19.3011,-210.185,-7.40825
30.5667,-18.7216,-209.325,-7.35144
30.6833,-18.1417,-208.46,-7.50835
30.8,-17.5604,-207.589,-7.35032
30.9167,-16.9786,-206.737,-7.23313
31.0333,-16.3995,-205.891,-7.17663
31.15,-15.8229,-205.052,-7.35759
31.2667,-15.2445,-204.203,-7.06425
31.3833,-14.6654,-203.362,-7.42176
31.5,-14.0863,-202.518,-7.06077
31.6167,-13.5065,-201.709,-7.35134
31.7333,-12.9258,-200.884,-6.63243
31.85,-12.3434,-200.022,-7.55062
31.9667,-11.7609,-199.218,-5.57484
32.0833,-11.1815,-198.451,-8.03648
32.2,-10.6044,-197.509,-7.38143
32.3167,-10.0262,-196.723,-7.19751
32.4333,-9.44704,-195.913,-7.10457
32.55,-8.86654,-195.075,-7.3758
32.6667,-8.28514,-194.239,-6.67091
32.7833,-7.70301,-193.439,-6.95432
32.9,-7.12146,-192.634,-6.7269
33.0167,-6.53866,-191.846,-6.71472
33.1333,-5.9584,-191.062,-6.69005
33.25,-5.38058,-190.282,-6.6659
33.3667,-4.80182,-189.505,-6.55536
33.4833,-4.22216,-188.745,-6.4658
33.6,-3.6422,-187.993,-6.49538
33.7167,-3.062,-187.225,-6.47778
33.8333,-2.48133,-186.485,-6.30716
33.95,-1.89985,-185.742,-6.28628
34.0667,-1.31741,-185.007,-6.26868
34.1833,-0.73835,-184.278,-6.21535
34.3,-0.159394,-183.544,-6.36263
34.4167,0.420061,-182.807,-6.31269
34.5333,0.999177,-182.074,-6.31381
34.65,1.57805,-181.333,-6.35352
34.7667,2.15819,-180.587,-6.44022
34.8833,2.73946,-179.834,-6.45004
35,3.32089,-179.068,-6.55147
35.1167,3.9034,-178.31,-6.51606
35.2333,4.48227,-177.542,-6.52854
35.35,5.062,-176.808,-6.41391
35.4667,5.64193,-176.031,-6.46816
35.5833,6.22255,-175.285,-6.50306
35.7,6.80358,-174.529,-5.2772
35.8167,7.38488,-174.03,-4.0186
35.9333,7.96675,-173.583,-3.02876
36.05,8.54932,-173.384,-1.52236
36.1667,9.13087,-173.149,-2.36502
36.2833,9.70979,-172.81,-2.95006
36.4,10.2891,-172.484,-2.65621
36.5167,10.8684,-172.161,-2.94913
36.6333,11.4488,-171.797,-3.12006
36.75,12.0295,-171.42,-3.4265
36.8667,12.6119,-171.007,-3.72731
36.9833,13.1943,-170.565,-3.93866
37.1,13.7768,-170.094,-3.99342
37.2167,14.3568,-169.626,-4.02556
37.3333,14.9361,-169.141,-4.40292
37.45,15.5159,-168.619,-4.45001
37.5667,16.096,-168.086,-4.60333
37.6833,16.6766,-167.533,-4.84457
37.8,17.2576,-166.967,-4.87056
37.9167,17.839,-166.423,-4.8635
38.0333,18.4207,-165.831,-4.91376
38.15,19.0024,-165.252,-5.03944
38.2667,19.581,-164.65,-5.18806
38.3833,20.1591,-164.047,-5.2159
38.5,20.7386,-163.447,-4.9984
38.6167,21.3193,-162.852,-5.20494
38.7333,21.8998,-162.228,-5.27925
38.85,22.481,-161.604,-5.67187
38.9667,23.0626,-160.957,-5.36471
39.0833,23.6447,-160.325,-5.50575
39.2,24.2258,-159.686,-5.46635
39.3167,24.8048,-159.039,-5.64024
39.4333,25.385,-158.385,-5.53994
39.55,25.9656,-157.716,-5.31507
39.6667,26.547,-157.106,-5.46287
39.7833,27.1283,-156.453,-5.62868
39.9,27.7104,-155.803,-5.41742
40.0167,28.2927,-155.161,-5.53216
40.1333,28.8754,-154.516,-5.60002
40.25,29.455,-153.876,-5.35049
40.3667,30.0354,-153.262,-5.21457
40.4833,30.6162,-152.656,-5.22234
40.6,31.1977,-152.042,-5.28007
40.7167,31.7795,-151.426,-5.11928
40.8333,32.3615,-150.828,-5.20484
40.95,32.944,-150.217,-5.16881
41.0667,33.5265,-149.621,-5.00894
41.1833,34.1079,-149.05,-4.94978
41.3,34.6874,-148.454,-5.21068
41.4167,35.2683,-147.85,-5.22132
41.5333,35.8492,-147.234,-5.23074
41.65,36.4309,-146.635,-5.081
41.7667,37.0128,-146.032,-5.18345
41.8833,37.5947,-145.44,-5.08243
42,38.1771,-144.83,-5.44711
42.1167,38.7591,-144.166,-5.81362
42.2333,39.3391,-143.484,-5.97227
42.35,39.9192,-142.792,-5.82847
42.4667,40.5,-142.118,-6.28648
42.5833,41.0808,-141.366,-6.4049
42.7,41.6623,-140.606,-6.40992
42.8167,42.2437,-139.885,-5.77013
42.9333,42.8266,-139.118,-6.45884
43.05,43.4096,-138.471,-5.26687
43.1667,43.9889,-137.835,-5.13811
43.2833,44.5686,-137.329,-3.90304
43.4,45.1489,-136.737,-5.12798
43.5167,45.7302,-136.194,-4.33762
43.6333,46.3115,-135.652,-4.87619
43.75,46.8933,-135.092,-4.81437
43.8667,47.4755,-134.513,-5.15909
43.9833,48.0584,-133.96,-4.70302
44.1,48.6385,-133.387,-4.99594
44.2167,49.2185,-132.798,-5.06083
44.3333,49.7986,-132.202,-5.06984
44.45,50.3789,-131.632,-5.04671
44.5667,50.9596,-131.017,-4.99451
44.6833,51.5409,-130.448,-4.83914
44.8,52.1228,-129.88,-4.82625
44.9167,52.7053,-129.281,-5.67289
45.0333,53.2852,-128.68,-4.16527
45.15,53.8645,-128.246,-4.36812
45.2667,54.4444,-127.748,-5.13166
45.3833,55.0247,-127.108,-5.30709
45.5,55.6061,-126.614,-4.02627
45.6167,56.1881,-126.097,-4.52308
45.7333,56.7701,-125.588,-4.39207
45.85,57.3531,-125.067,-4.10467
45.9667,57.9337,-124.595,-4.16731
46.0833,58.5139,-124.11,-4.10078
46.2,59.0951,-123.648,-3.95381
46.3167,59.6762,-123.192,-3.73519
46.4333,60.2576,-122.771,-3.9055
46.55,60.8401,-122.294,-3.87664
46.6667,61.4224,-121.864,-3.7184
46.7833,62.0056,-121.419,-3.83324
46.9,62.5883,-120.979,-3.74829
47.0167,63.1686,-120.545,-3.71636
47.1333,63.7494,-120.118,-3.63898
47.25,64.3301,-119.687,-3.75586
47.3667,64.9118,-119.238,-3.96363
47.4833,65.4938,-118.809,-3.28321
47.6,66.0769,-118.411,-3.66047
47.7167,66.6605,-117.979,-3.60459
47.8333,67.2425,-117.564,-3.52844
47.95,67.8241,-117.156,-3.47726
48.0667,68.4059,-116.748,-3.62915
48.1833,68.9872,-116.327,-3.42998
48.3,69.5694,-115.947,-3.17738
48.4167,70.1521,-115.571,-3.31432
48.5333,70.7347,-115.171,-3.42261
48.65,71.3178,-114.771,-3.42199
48.7667,71.8996,-114.374,-3.40767
48.8833,72.4808,-113.975,-3.4267
49,73.0618,-113.576,-3.33315
49.1167,73.6432,-113.192,-3.27645
49.2333,74.2247,-112.807,-3.32701
49.35,74.8067,-112.413,-3.3047
49.4667,75.3891,-112.038,-3.17901
49.5833,75.9713,-111.665,-3.11187
49.7,76.5519,-111.305,-3.0828
49.8167,77.1322,-110.957,-2.92416
49.9333,77.7123,-110.624,-2.94709
50.05,78.2928,-110.267,-3.09652
50.1667,78.8741,-109.901,-3.22691
50.2833,79.4562,-109.527,-3.09652
50.4,80.0383,-109.162,-3.1522
50.5167,80.6208,-108.799,-3.07891
50.6333,81.201,-108.43,-3.2394
50.75,81.7814,-108.056,-3.24657
50.8667,82.362,-107.675,-3.39436
50.9833,82.9429,-107.288,-3.18147
51.1,83.5241,-106.935,-2.93665
51.2167,84.1063,-106.59,-3.01566
51.3333,84.6886,-106.237,-3.02733
51.45,85.2713,-105.868,-3.20767
51.5667,85.8519,-105.507,-3.01812
51.6833,86.4327,-105.163,-2.87749
51.8,87.0132,-104.821,-2.9391
51.9167,87.5947,-104.489,-2.62325
52.0333,88.1765,-104.149,-3.09079
52.15,88.7585,-103.803,-2.93255
52.2667,89.3412,-103.459,-2.87749
52.3833,89.9234,-103.121,-2.85681
52.5,90.5028,-102.792,-2.80523
52.6167,91.0831,-102.481,-2.54383
52.7333,91.6633,-102.137,-3.00973
52.85,92.2441,-101.804,-2.80789
52.9667,92.8262,-101.453,-2.91679
53.0833,93.4086,-101.13,-2.85456
53.2,93.9912,-100.81,-2.63799
53.3167,94.5722,-100.498,-2.6255
53.4333,95.1521,-100.19,-2.59807
53.55,95.733,-99.8847,-2.66562
53.6667,96.3146,-99.5562,-2.55426
53.7833,96.8962,-99.2889,-2.60298
53.9,97.4792,-98.9811,-2.39644
54.0167,98.0618,-98.7173,-2.22736
54.1333,98.6454,-98.4432,-2.4253
54.25,99.2268,-98.1576,-2.57044
54.3667,99.8078,-97.8632,-2.69653
54.4833,100.389,-97.5591,-2.69633
54.6,100.97,-97.2317,-2.81239
54.7167,101.552,-96.9368,-2.46461
54.8333,102.134,-96.51,-3.59128
54.95,102.716,-96.101,-2.99294
55.0667,103.299,-95.759,-3.08362
55.1833,103.879,-95.3906,-3.46253
55.3,104.46,-95.0086,-3.12354
55.4167,105.04,-94.6889,-2.63574
55.5333,105.622,-94.3714,-2.8038
55.65,106.204,-94.0467,-2.73645
55.7667,106.786,-93.7379,-2.38641
55.8833,107.368,-93.4508,-2.31395
56,107.949,-93.1961,-2.16369
56.1167,108.53,-92.956,-1.97721
56.2333,109.109,-92.7188,-1.90802
56.35,109.691,-92.4945,-1.87875
56.4667,110.272,-92.2847,-1.84395
56.5833,110.854,-92.0744,-1.66832
56.7,111.438,-91.8803,-1.70046
56.8167,112.02,-91.7082,-1.32667
56.9333,112.601,-91.5107,-1.72829
57.05,113.181,-91.3062,-1.83986
57.1667,113.763,-91.0832,-1.88591
57.2833,114.344,-90.8795,-1.77087
57.4,114.926,-90.6777,-1.75777
57.5167,115.508,-90.4839,-1.52196
57.6333,116.091,-90.2837,-3.35588
57.75,116.673,-90.0126,-0.546553
57.8667,117.253,-89.9603,-0.939989
57.9833,117.833,-89.7994,-1.38562
58.1,118.415,-89.684,-0.978064
58.2167,118.997,-89.5204,-2.02757
58.3333,119.578,-89.2311,-2.68773
58.45,120.16,-88.9168,-1.78909
58.5667,120.74,-90.4126,117.68
58.6833,121.206,-97.9619,-303.543
58.8,121.392,-30.4391,-607.959
58.9167,121.417,21.3438,-258.496
59.0333,121.414,36.0349,-46.2003
59.15,121.415,37.9838,-5.15397
59.2667,121.416,40.1407,-19.6624
59.3833,121.415,42.294,-19.0819
59.5,121.411,44.3789,-16.3389
59.6167,121.406,46.0875,-13.602
59.7333,121.4,47.4855,-10.771
59.85,121.394,48.5796,-9.21443
59.9667,121.387,49.6382,-9.39907
60.0833,121.38,50.8494,-11.8457
60.2,121.372,52.2366,-10.8463
60.3167,121.366,53.2838,-6.71666
60.4333,121.359,53.8472,-3.74686
60.55,121.353,54.3621,-5.13637
60.6667,121.347,54.8594,-2.90103
60.7833,121.342,55.1261,-1.96472
60.9,121.337,55.2348,0.0515848
61.0167,121.333,55.3232,-1.43045
61.1333,121.329,55.4653,-0.58954
61.25,121.327,55.5788,-1.03006
61.3667,121.325,55.6848,-0.966191
61.4833,121.324,55.8114,-1.16598
61.6,121.324,55.9376,-1.09392
61.7167,121.323,56.073,-1.31296
61.8333,121.323,56.2196,-1.30477
61.95,121.323,56.3844,-1.62287
62.0667,121.324,56.5886,-1.79892
62.1833,121.325,56.8024,-1.87179
62.3,121.325,57.0061,-1.8546
62.4167,121.327,57.2688,-2.06053
62.5333,121.327,57.5035,-2.07444
62.65,121.328,57.7627,-2.25049
62.7667,121.329,57.5305,-0.0962097
62.8833,121.331,58.5201,5.08028
63,121.333,58.4556,-1.68756
63.1167,121.334,58.8016,-3.71902
63.2333,121.336,59.3077,-4.19229
63.35,121.336,59.7645,-3.59783
63.4667,121.338,60.17,0.0810618
63.5833,121.335,57.3704,97.9836
63.7,121.236,54.7907,-219.952
63.8167,120.894,103.885,-511.522
63.9333,120.342,159.489,-386.737
64.05,119.7,190.81,-156.057
64.1667,119.057,198.811,-6.46488
64.2833,118.441,196.015,40.004
64.4,117.848,192.151,18.4604
64.5167,117.264,189.925,4.33435
64.6333,116.681,190.34,-7.39382
64.75,116.095,191.343,-8.70186
64.8667,115.507,192.174,-5.98506
64.9833,114.919,192.671,-2.81792
65.1,114.333,192.875,-0.429873
65.2167,113.747,192.541,-0.345536
65.3333,113.164,193.033,3.15445
65.45,112.581,192.934,-0.573164
65.5667,111.998,193.031,-0.756577
65.6833,111.413,193.04,0.357818
65.8,110.829,193.02,0.366825
65.9167,110.245,192.995,0.170312
66.0333,109.663,192.954,0.473679
66.15,109.081,192.889,0.812665
66.2667,108.5,192.778,0.969466
66.3833,107.92,192.664,1.071
66.5,107.338,192.531,1.07182
66.6167,106.756,192.405,1.08
66.7333,106.174,192.279,1.12668
66.85,105.593,192.129,1.36822
66.9667,105.012,191.961,1.48777
67.0833,104.432,191.782,1.65317
67.2,103.852,191.592,1.5717
67.3167,103.271,191.396,1.82553
67.4333,102.689,191.185,1.86852
67.55,102.107,190.957,2.05111
67.6667,101.526,190.723,2.07117
67.7833,100.945,190.472,2.17106
67.9,100.364,190.218,2.20054
68.0167,99.7836,189.959,2.24639
68.1333,99.2036,189.698,2.29388
68.25,98.6235,189.415,2.58784
68.3667,98.042,189.116,2.20423
68.4833,97.4606,188.838,2.50841
68.6,96.8798,188.544,2.51824
68.7167,96.2991,188.239,2.57392
68.8333,95.7197,187.932,2.71107
68.95,95.1396,187.612,2.84003
69.0667,94.5601,187.279,2.95957
69.1833,93.9792,186.944,2.78681
69.3,93.398,186.627,2.62468
69.4167,92.8175,186.274,2.99683
69.5333,92.2369,185.932,2.96121
69.65,91.6566,185.576,3.05578
69.7667,91.0766,185.209,3.24165
69.8833,90.497,184.834,3.21627
70,89.9173,184.455,3.18515
70.1167,89.3367,184.081,3.30634
70.2333,88.7554,183.688,3.39764
70.35,88.1753,183.288,3.52005
70.4667,87.5948,182.867,3.61462
70.5833,87.014,182.438,3.70673
70.7,86.4341,182.008,3.67603
70.8167,85.8553,181.585,3.75423
70.9333,85.277,181.151,3.65228
71.05,84.6956,180.706,3.94255
71.1667,84.1145,180.248,4.0232
71.2833,83.5335,179.771,4.01338
71.4,82.9536,179.315,3.88523
71.5167,82.374,178.855,4.02034
71.6333,81.7949,178.387,4.01788
71.75,81.2168,177.915,4.0973
71.8667,80.6372,177.444,4.09034
71.9833,80.0556,176.952,4.19761
72.1,79.4747,176.46,4.40108
72.2167,78.8933,175.944,3.95279
72.3333,78.3134,175.464,4.3802
72.45,77.7338,174.934,4.58163
72.5667,77.1551,174.364,5.25714
72.6833,76.5759,173.902,3.61093
72.8,75.9959,173.394,6.14882
72.9167,75.4145,172.75,4.12187
73.0333,74.8335,172.274,4.73556
73.15,74.252,171.657,4.8633
73.2667,73.6713,171.064,5.23749
73.3833,73.092,170.484,4.7286
73.5,72.5131,169.904,5.31528
73.6167,71.9346,169.295,5.18754
73.7333,71.3549,168.691,5.14456
73.85,70.773,168.087,5.31118
73.9667,70.1925,167.443,5.55355
74.0833,69.6116,166.806,5.51302
74.2,69.0318,166.155,5.71567
74.3167,68.4516,165.484,5.73778
74.4333,67.8723,164.811,5.7558
74.55,67.2934,164.159,5.4905
74.6667,66.7137,163.526,5.48805
74.7833,66.1324,162.887,5.51425
74.9,65.5516,162.239,5.42991
75.0167,64.9716,161.666,4.67129
75.1333,64.3916,161.108,5.07823
75.25,63.812,160.487,5.16298
75.3667,63.2339,159.977,4.69667
75.4833,62.6554,159.614,9.68156
75.6,62.0765,159.015,8.87381
75.7167,61.4956,158.995,3.24165
75.8333,60.9151,158.029,9.51452
75.95,60.3348,157.674,3.01443
76.0667,59.7547,157.22,4.30201
76.1833,59.1753,156.763,4.19638
76.3,58.5959,156.27,3.99823
76.4167,58.0176,155.817,4.11573
76.5333,57.4386,155.318,4.16608
76.65,56.8571,154.824,4.30242
76.7667,56.2764,154.326,4.32698
76.8833,55.6954,153.812,4.44775
77,55.1147,153.27,4.45267
77.1167,54.5353,152.779,4.39494
77.2333,53.9565,152.261,4.51531
77.35,53.3784,151.725,4.51571
77.4667,52.8001,151.189,4.68889
77.5833,52.219,150.633,4.79288
77.7,51.6377,150.07,4.8461
77.8167,51.0573,149.511,4.8678
77.9333,50.4777,148.932,4.89359
78.05,49.8986,148.345,5.34189
78.1667,49.3203,147.737,5.2072
78.2833,48.7425,147.137,5.14005
78.4,48.1647,146.531,5.22234
78.5167,47.5833,145.921,5.27679
78.6333,47.0028,145.329,4.7241
78.75,46.4226,144.755,5.00823
78.8667,45.8425,144.175,4.79616
78.9833,45.2629,143.625,4.68029
79.1,44.6838,143.077,4.64386
79.2167,44.1055,142.549,4.5456
79.3333,43.5271,142.017,4.52677
79.45,42.947,141.5,4.26925
79.5667,42.3661,141.015,4.2365
79.6833,41.7854,140.481,4.49402
79.8,41.2058,139.973,4.21972
79.9167,40.627,139.467,4.33967
80.0333,40.0489,138.947,4.54069
80.15,39.4708,138.415,4.68603
80.2667,38.8934,137.862,4.80434
80.3833,38.314,137.291,4.99431
80.5,37.7331,136.694,5.20228
80.6167,37.1527,136.083,5.3251
80.7333,36.5733,135.448,5.60555
80.85,35.9939,134.755,6.14432
80.9667,35.4155,134.023,6.34984
81.0833,34.8378,133.283,6.51074
81.2,34.2601,132.508,6.85259
81.3167,33.6824,131.696,7.02986
81.4333,33.1015,130.853,7.36762
81.55,32.5201,129.984,7.56781
81.6667,31.9397,129.089,7.73567
81.7833,31.3594,128.184,7.70701
81.9,30.7797,127.286,7.78357
82.0167,30.2009,126.38,7.8286
82.1333,29.6223,125.463,7.85153
82.25,29.0445,124.561,7.79667
82.3667,28.4647,123.631,7.94119
82.4833,27.8837,122.746,7.8503
82.6,27.3031,121.863,7.43312
82.7167,26.7226,120.969,7.88101
82.8333,26.1434,120.026,7.21573
82.95,25.5642,119.145,6.95248
83.0667,24.985,118.312,6.66836
83.1833,24.4065,117.414,8.06688
83.3,23.8286,116.57,7.71765
83.4167,23.2473,115.665,7.3799
83.5333,22.6668,114.804,7.58869
83.65,22.0873,113.9,7.59852
83.7667,21.5081,113.01,7.72175
83.8833,20.9294,112.103,7.50354
84,20.3504,111.209,8.05828
84.1167,19.7728,110.283,7.83761
84.2333,19.1958,109.372,7.81223
84.35,18.6167,108.449,7.87446
84.4667,18.0371,107.523,7.95757
84.5833,17.4579,106.593,8.03986
84.7,16.8789,105.66,7.97722
84.8167,16.3007,104.736,7.84293
84.9333,15.7222,103.781,8.38457
85.05,15.144,102.837,7.98418
85.1667,14.5668,101.899,8.02266
85.2833,13.99,100.966,7.74836
85.4,13.41,100.052,7.98786
85.5167,12.8304,99.1227,7.94815
85.6333,12.2502,98.2046,7.82123
85.75,11.671,97.2764,8.07506
85.8667,11.0922,96.3862,8.06524
85.9833,10.5146,95.4306,7.6935
86.1,9.93649,94.5231,7.90803
86.2167,9.35898,93.576,8.65355
86.3333,8.78057,92.6157,7.67221
86.45,8.20013,91.6839,7.92809
86.5667,7.62009,90.7473,8.14507
86.6833,7.04057,89.7883,8.20362
86.8,6.46146,88.8392,7.9023
86.9167,5.88323,87.9178,8.31375
87.0333,5.30543,86.9547,8.2376
87.15,4.72745,85.9961,8.26666
87.2667,4.15007,85.0403,8.22531
87.3833,3.57061,84.0667,8.41487
87.5,2.9904,83.0768,8.49552
87.6167,2.41054,82.0858,8.59705
87.7333,1.83079,81.0878,8.57167
87.85,1.25119,80.0796,8.65723
87.9667,0.672454,79.0567,8.73216
88.0833,0.0944175,78.0435,8.69613
88.2,-0.482221,77.0232,8.78374
88.3167,-1.05884,75.9964,8.87053
88.4333,-1.63891,74.9552,8.99868
88.55,-2.21895,73.9048,8.99458
88.6667,-2.79813,72.8618,8.97043
88.7833,-3.37672,71.8138,8.92335
88.9,-3.95467,70.7674,8.94136
89.0167,-4.53272,69.6976,9.00359
89.1333,-5.1098,68.6382,9.2738
89.25,-5.68632,67.5554,9.53377
89.3667,-6.26231,66.515,9.29058
89.4833,-6.84185,65.4392,9.23859
89.6,-7.42172,64.3544,9.87685
89.7167,-8.00044,63.1744,9.11331
89.8333,-8.57809,62.1954,8.71905
89.95,-9.15524,61.0738,10.0881
90.0667,-9.73233,59.9569,9.64471
90.1833,-10.3089,58.8445,9.61688
90.3,-10.8841,57.7351,9.70326
90.4167,-11.459,56.564,9.86948
90.5333,-12.0382,55.4143,9.96118
90.65,-12.6174,54.2454,9.97306
90.7667,-13.1963,53.0791,10.0066
90.8833,-13.7744,51.9074,10.0345
91,-14.3517,50.7364,10.0742
91.1167,-14.9296,49.5491,10.1974
91.2333,-15.5061,48.362,10.2633
91.35,-16.0815,47.1622,10.3043
91.4667,-16.6561,45.963,10.2568
91.5833,-17.2353,44.7659,10.2899
91.7,-17.8147,43.5627,10.3157
91.8167,-18.3929,42.359,10.2412
91.9333,-18.9703,41.1689,10.3178
92.05,-19.5476,39.9555,10.398
92.1667,-20.1245,38.7496,10.3784
92.2833,-20.701,37.5344,10.5651
92.4,-21.276,36.3022,10.4934
92.5167,-21.8501,35.064,10.658
92.6333,-22.4285,33.8267,10.6625
92.75,-23.0081,32.5718,10.8082
92.8667,-23.5864,31.2968,10.9794
92.9833,-24.164,30.0215,10.927
93.1,-24.7415,28.7375,11.0195
93.2167,-25.3175,27.4547,10.9581
93.3333,-25.8928,26.154,10.8148
93.45,-26.467,24.9142,11.4473
93.5667,-27.0404,23.5757,10.9589
93.6833,-27.6163,22.3648,11.2242
93.8,-28.1955,20.4184,19.5555
93.9167,-28.774,19.4576,5.91874
94.0333,-29.3526,18.5023,9.5657
94.15,-29.9303,17.2733,10.9671
94.2667,-30.5079,15.971,10.2781
94.3833,-31.0846,14.6665,10.7358
94.5,-31.66,13.3818,11.1787
94.6167,-32.2348,12.0647,11.4256
94.7333,-32.809,10.7425,11.4518
94.85,-33.3898,9.4031,11.5865
94.9667,-33.9698,8.0449,11.5656
95.0833,-34.5488,6.68825,11.7335
95.2,-35.1273,5.32289,11.6291
95.3167,-35.7043,3.96205,11.6917
95.4333,-36.2811,2.58959,11.7926
95.55,-36.8572,1.20155,11.9585
95.6667,-37.4325,-0.191311,12.0833
95.7833,-38.007,-1.58901,11.9173
95.9,-38.584,-2.99548,12.1519
96.0167,-39.1643,-4.41655,12.1562
96.1333,-39.7427,-5.83834,12.2495
96.25,-40.3202,-7.27291,12.2743
96.3667,-40.8975,-8.70444,12.2698
96.4833,-41.4737,-10.1305,12.147
96.6,-42.0496,-11.5574,12.3116
96.7167,-42.6233,-12.9948,12.39
96.8333,-43.1973,-14.4541,12.4845
96.95,-43.7704,-15.9132,12.567
97.0667,-44.3489,-17.3876,12.6628
97.1833,-44.9276,-18.8703,12.7238
97.3,-45.5052,-20.3606,12.7975
97.4167,-46.0817,-21.8671,13.1619
97.5333,-46.6577,-23.4002,12.932
97.65,-47.2332,-24.897,12.9193
97.7667,-47.8078,-26.4023,12.889
97.8833,-48.3813,-27.9294,13.3224
98,-48.9543,-29.4487,12.9621
98.1167,-49.5257,-30.9654,13.0606
98.2333,-50.1042,-32.5032,13.2802
98.35,-50.6815,-34.0609,13.3252
98.4667,-51.2589,-35.6104,13.2391
98.5833,-51.8346,-37.1738,13.6538
98.7,-52.4096,-38.7728,13.7125
98.8167,-52.9839,-40.3686,13.698
98.9333,-53.5571,-41.9548,13.8339
99.05,-54.1286,-43.5868,13.9653
99.1667,-54.6997,-45.2295,14.0757
99.2833,-55.2705,-46.8777,14.1514
99.4,-55.8483,-48.5279,14.1418
99.5167,-56.4261,-50.1794,14.1819
99.6333,-57.0018,-51.8397,14.3178
99.75,-57.5766,-53.5131,14.4038
99.8667,-58.1511,-55.1982,14.4452
99.9833,-58.7242,-56.8738,13.3156
100.1,-59.2965,-58.534,15.2196
100.217,-59.868,-60.26,14.1829
100.333,-60.4384,-61.9334,14.9332
100.45,-61.0076,-63.6981,14.7754
100.567,-61.5847,-65.2436,11.9173
100.683,-62.1607,-66.4018,8.66583
100.8,-62.7361,-67.1945,5.52571
100.917,-63.31,-67.7476,4.34765
101.033,-63.8838,-68.2459,4.67231
101.15,-64.4562,-68.8975,6.52445
101.267,-65.0278,-69.7193,7.90966
101.383,-65.5996,-70.7238,8.91291
101.5,-66.1692,-71.7233,8.75959
101.617,-66.7379,-72.7986,9.64062
101.733,-67.3123,-73.9824,15.1876
101.85,-67.889,-75.1735,1.45952
101.967,-68.4655,-76.5675,12.9613
102.083,-69.0402,-78.0889,12.4532
102.2,-69.6141,-79.4415,10.9532
102.317,-70.1865,-80.8149,12.4919
102.433,-70.7576,-82.3171,12.0336
102.55,-71.3282,-83.6969,12.0667
102.667,-71.8978,-85.066,10.9775
102.783,-72.466,-86.3445,10.7659
102.9,-73.036,-87.4612,8.04784
103.017,-73.6122,-88.2456,5.16093
103.133,-74.1873,-88.4961,-1.52707
103.25,-74.7604,-87.8391,-11.3548
103.367,-75.3334,-85.7324,-26.4351
103.483,-75.9046,-81.492,-49.1945
103.6,-76.474,-74.0191,-85.2975
103.717,-77.0405,-61.276,-134.82
103.833,-77.6059,-41.9873,-199.876
103.95,-78.1675,-14.6984,-267.724
104.067,-78.7261,20.2231,-325.195
104.183,-79.2861,60.4297,-350.129
104.3,-79.8445,100.02,-309.827
104.417,-80.3934,130.266,-202.233
104.533,-80.9305,143.47,-22.7354
104.65,-81.4535,134.71,199.773
104.767,-81.9623,103.075,296.303
104.883,-82.4536,61.8864,403.907
105,-82.9273,13.1253,424.093
105.117,-83.3821,-32.2239,351.242
105.233,-83.814,-68.7033,272.473
105.35,-84.2265,-96.1032,197.978
105.467,-84.6185,-115.708,141.643
105.583,-84.9914,-129.803,102.745
105.7,-85.3507,-140.16,76.1445
105.817,-85.6992,-148.031,59.8767
105.933,-86.0317,-154.335,49.7958
106.05,-86.3497,-159.463,29.8345
106.167,-86.6401,-158.732,-20.5298
106.283,-86.8475,-161.747,88.853
106.4,-86.9565,-177.48,152.538
106.517,-87.0051,-194.235,112.298
106.633,-87.0276,-203.352,60.5996
106.75,-87.0408,-208.252,29.2246
106.867,-87.0483,-210.978,19.7072
106.983,-87.0531,-212.912,13.398
107.1,-87.056,-214.282,10.8461
107.217,-87.0581,-215.473,8.74014
107.333,-87.0594,-216.334,6.18802
107.45,-87.0594,-217.031,6.4242
107.567,-87.0579,-217.839,6.72526
107.683,-87.0533,-218.581,6.35311
107.8,-87.0478,-219.334,5.28068
107.917,-87.0418,-219.882,4.62344
108.033,-87.0356,-220.464,2.82457
108.15,-87.0299,-220.433,2.85518
108.267,-87.0241,-221.223,4.31403
108.383,-87.0188,-221.51,1.53158
108.5,-87.0132,-221.678,1.94354
108.617,-87.0072,-221.97,1.59841
108.733,-87.003,-222.114,0.886102
108.85,-86.9977,-222.294,2.37525
108.967,-86.9929,-222.61,1.3651
109.083,-86.9898,-222.722,0.909489
109.2,-86.9865,-222.959,2.40294
109.317,-86.9834,-223.152,1.0101
109.433,-86.982,-223.274,1.61387
109.55,-86.9802,-223.493,1.67487
109.667,-86.9785,-223.683,1.70081
109.783,-86.9782,-223.884,1.25804
109.9,-86.9774,-224.045,2.01969
110.017,-86.9772,-224.227,0.881496
110.133,-86.9765,-224.366,1.58664
110.25,-86.9772,-224.537,1.1168
110.367,-86.9777,-224.676,2.04481
110.483,-86.9773,-225.061,2.92257
110.6,-86.9736,-222.893,-88.2919
110.717,-86.8931,-209.867,-27.8552
110.833,-86.6281,-220.906,202.843
110.95,-86.1815,-249.838,268.753
111.067,-85.6216,-278.33,202.945
111.183,-85.02,-296.329,106.692
111.3,-84.4204,-304.241,40.2004
111.417,-83.8299,-306.434,3.14708
111.533,-83.2468,-306.398,-2.43403
111.65,-82.6676,-306.048,-2.07488
111.767,-82.0886,-305.95,-0.0378186
111.883,-81.5079,-306.013,0.433711
112,-80.9259,-306.051,-0.734008
112.117,-80.3423,-305.818,-3.5157
112.233,-79.7585,-305.31,-5.45967
112.35,-79.1748,-304.509,-7.77344
112.467,-78.5988,-303.512,-8.89942
112.583,-78.0242,-302.473,-5.50235
112.7,-77.4489,-301.255,-20.2839
112.817,-76.874,-300.085,-8.92982
112.933,-76.2976,-298.97,-10.2349
113.05,-75.7211,-297.788,-10.2396
113.167,-75.1432,-296.649,-5.55033
113.283,-74.5651,-295.368,-16.6793
113.4,-73.9864,-294.652,-5.58592
113.517,-73.4068,-293.891,-7.2136
113.633,-72.8265,-293.059,-6.92971
113.75,-72.2546,-292.244,-6.3264
113.867,-71.6811,-291.718,-3.2787
113.983,-71.1076,-291.289,-4.4195
114.1,-70.5319,-290.778,-3.81225
114.217,-69.9569,-290.447,-2.20922
114.333,-69.3809,-290.197,-2.30814
114.45,-68.8032,-290.008,-1.02497
114.567,-68.2252,-289.915,-0.570919
114.683,-67.6461,-289.812,-0.396539
114.8,-67.0655,-289.825,0.921182
114.917,-66.491,-290.008,2.32877
115.033,-65.9179,-290.336,2.70988
115.15,-65.3452,-290.603,2.11629
115.267,-64.7707,-290.91,3.54842
115.383,-64.1956,-291.395,4.5949
115.5,-63.6193,-291.989,5.53213
115.617,-63.0427,-292.724,6.65739
115.733,-62.4651,-293.585,7.72124
115.85,-61.8872,-294.616,10.0562
115.967,-61.3078,-295.944,12.6852
116.083,-60.7317,-297.465,13.7048
116.2,-60.159,-299.233,16.3221
116.317,-59.5856,-301.269,18.1799
116.433,-59.0123,-303.629,22.325
116.55,-58.4371,-306.481,26.2596
116.667,-57.8622,-309.779,31.0816
116.783,-57.2859,-313.782,37.2935
116.9,-56.7089,-318.529,44.4405
117.017,-56.1312,-324.204,52.9395
117.133,-55.5536,-330.96,63.1028
117.25,-54.9791,-338.745,76.3104
117.367,-54.4092,-348.284,77.9224
117.483,-53.8384,-359.545,105.363
117.6,-53.2661,-372.503,121.643
117.717,-52.6933,-387.007,122.223
117.833,-52.1198,-402.226,128.703
117.95,-51.5461,-416.159,103.902
118.067,-50.9711,-425.487,46.6069
118.183,-50.3921,-426.069,-49.119
118.3,-49.8094,-412.417,-188.436
118.417,-49.2265,-382.873,-303.857
118.533,-48.6444,-344.312,-331.739
118.65,-48.0609,-308.212,-276.199
118.767,-47.478,-282.475,-179.183
118.883,-46.8959,-265.806,-112.963
119,-46.3154,-254.899,-75.4398
119.117,-45.734,-247.922,-46.6319
119.233,-45.1545,-243.276,-33.8737
119.35,-44.5734,-239.955,-23.2954
119.467,-43.9915,-237.752,-15.9678
119.583,-43.4157,-236.083,-12.5393
119.7,-42.8414,-234.748,-10.9867
119.817,-42.2652,-233.578,-8.9037
119.933,-41.6888,-232.6,-8.549
120.05,-41.1117,-231.596,-8.31733
120.167,-40.5333,-230.671,-7.35083
120.283,-39.9541,-229.783,-8.68436
120.4,-39.3741,-228.786,-8.19978
120.517,-38.794,-227.832,-8.1291
120.633,-38.2133,-226.886,-8.07711
120.75,-37.638,-225.929,-8.31093
120.867,-37.0618,-224.97,-8.11171
120.983,-36.4849,-224.017,-8.18084
121.1,-35.9073,-223.073,-8.35735
121.217,-35.3294,-222.132,-7.82482
121.333,-34.75,-221.192,-8.09216
121.45,-34.1701,-220.251,-8.03571
121.567,-33.5905,-219.318,-7.91284
121.683,-33.0091,-218.405,-7.83848
121.8,-32.4318,-217.493,-7.91284
121.917,-31.8549,-216.577,-7.64202
122.033,-31.2774,-215.688,-8.0397
122.15,-30.7,-214.771,-7.6283
122.267,-30.1216,-213.868,-7.88336
122.383,-29.5435,-213.066,-6.77746
122.5,-28.9632,-211.982,-17.2045
122.617,-28.3821,-211.181,-6.12175
122.733,-27.8003,-210.322,-16.913
122.85,-27.22,-209.52,-1.18343
122.967,-26.6431,-208.423,-6.12958
123.083,-26.066,-207.615,-6.8314
123.2,-25.4867,-206.747,-7.95286
123.317,-24.9078,-205.864,-7.40804
123.433,-24.3279,-204.98,-7.31255
123.55,-23.7476,-204.129,-7.41091
123.667,-23.1662,-203.262,-7.33845
123.783,-22.5846,-202.409,-7.33681
123.9,-22.0023,-201.555,-7.22207
124.017,-21.4258,-200.72,-7.13825
124.133,-20.8484,-199.873,-7.2102
124.25,-20.2711,-199.019,-7.37744
124.367,-19.6929,-198.17,-7.23528
124.483,-19.1137,-197.334,-7.18052
124.6,-18.5337,-196.499,-7.1055
124.717,-17.9522,-195.658,-7.24572
124.833,-17.3711,-194.822,-7.08165
124.95,-16.7888,-193.986,-7.1799
125.067,-16.2117,-193.155,-7.04736
125.183,-15.635,-192.335,-7.04163
125.3,-15.0568,-191.527,-6.92219
125.417,-14.4774,-190.706,-6.98984
125.533,-13.8969,-189.909,-6.55362
125.65,-13.3152,-189.104,-6.99076
125.767,-12.7327,-188.321,-6.58576
125.883,-12.1508,-187.529,-6.83027
126,-11.5688,-186.82,-6.73928
126.117,-10.991,-185.988,-8.01222
126.233,-10.413,-185.321,-4.54662
126.35,-9.83483,-184.386,-14.6605
126.467,-9.2561,-183.705,-4.79759
126.583,-8.67634,-183.056,-1.50394
126.7,-8.09614,-181.877,-15.6627
126.817,-7.51599,-181.51,-6.32466
126.933,-6.93432,-180.773,-7.89861
127.05,-6.35203,-179.868,-5.80431
127.167,-5.77342,-179.219,-6.2131
127.283,-5.19506,-178.506,-6.63059
127.4,-4.61587,-177.767,-6.27175
127.517,-4.03639,-177.055,-5.91782
127.633,-3.456,-176.341,-6.17124
127.75,-2.87525,-175.617,-6.1741
127.867,-2.29416,-174.899,-6.30388
127.983,-1.71301,-174.163,-6.29181
128.1,-1.13111,-173.429,-6.3262
128.217,-0.552556,-172.681,-6.64369
128.333,0.02652,-171.944,-6.17339
128.45,0.605656,-171.199,-6.47532
128.567,1.18647,-170.444,-6.43407
128.683,1.76762,-169.695,-6.34902
128.8,2.34868,-168.954,-6.39928
128.917,2.93037,-168.218,-6.2915
129.033,3.5131,-167.483,-6.32978
129.15,4.09508,-166.751,-6.23674
129.267,4.67429,-166.024,-6.17717
129.383,5.25349,-165.312,-6.12293
129.5,5.83264,-164.594,-6.21637
129.617,6.41291,-163.868,-6.23582
129.733,6.99458,-163.148,-6.11976
129.85,7.5769,-162.434,-6.12979
129.967,8.15894,-161.724,-6.07237
130.083,8.74125,-161.015,-6.04821
130.2,9.32229,-160.31,-6.0564
130.317,9.90127,-159.6,-6.12078
130.433,10.481,-158.886,-6.05875
130.55,11.0615,-158.187,-5.93542
130.667,11.6417,-157.504,-5.90021
130.783,12.2224,-156.837,-5.63727
130.9,12.8037,-156.132,-6.05998
131.017,13.3853,-155.437,-5.85344
131.133,13.9685,-154.751,-5.92826
131.25,14.5479,-154.064,-5.82161
131.367,15.1269,-153.391,-5.76746
131.483,15.7064,-152.724,-5.69019
131.6,16.2867,-152.061,-5.68323
131.717,16.8669,-151.4,-5.63042
131.833,17.448,-150.734,-5.39173
131.95,18.0297,-150.106,-5.47976
132.067,18.6121,-149.473,-5.32132
132.183,19.194,-148.855,-5.31078
132.3,19.773,-148.238,-5.39378
132.417,20.353,-147.612,-5.31753
132.533,20.9332,-146.989,-5.33513
132.65,21.5135,-146.365,-5.21006
132.767,22.0953,-145.745,-5.51568
132.883,22.6781,-145.127,-5.17424
133,23.2602,-144.536,-5.1289
133.117,23.8421,-143.932,-5.18089
133.233,24.4221,-143.331,-4.99656
133.35,25.0014,-142.748,-5.01631
133.467,25.5814,-142.168,-4.90669
133.583,26.1615,-141.593,-4.96268
133.7,26.743,-141.02,-5.02071
133.817,27.3243,-140.447,-4.74682
133.933,27.9062,-139.893,-4.78858
134.05,28.4882,-139.342,-4.71888
134.167,29.0693,-138.794,-4.6849
134.283,29.6487,-138.236,-4.74416
134.4,30.2287,-137.718,-4.35932
134.517,30.8091,-137.18,-4.52042
134.633,31.3898,-136.634,-4.77282
134.75,31.9712,-136.117,-4.01931
134.867,32.553,-135.6,-4.62646
134.983,33.1351,-135.058,-4.74089
135.1,33.7177,-134.512,-4.56034
135.217,34.297,-133.982,-4.48296
135.333,34.8774,-133.47,-4.52063
135.45,35.4571,-132.937,-4.20764
135.567,36.0372,-132.435,-4.46004
135.683,36.6185,-131.915,-4.31879
135.8,37.2006,-131.416,-4.33496
135.917,37.7822,-130.92,-4.16854
136.033,38.3642,-130.444,-4.02341
136.15,38.945,-129.97,-3.98656
136.267,39.5247,-129.512,-3.75648
136.383,40.1052,-129.034,-4.36444
136.5,40.6861,-128.557,-4.06435
136.617,41.2674,-128.079,-4.1014
136.733,41.8497,-127.596,-4.17038
136.85,42.4321,-127.116,-4.09116
136.967,43.0148,-126.665,-4.08502
137.083,43.5963,-126.174,-4.00294
137.2,44.1755,-125.705,-3.94419
137.317,44.7556,-125.253,-3.7487
137.433,45.3363,-124.825,-3.78186
137.55,45.9173,-124.374,-3.89956
137.667,46.4991,-123.923,-3.84921
137.783,47.0816,-123.475,-3.84593
137.9,47.6636,-123.026,-4.11163
138.017,48.2461,-122.565,-3.70673
138.133,48.8259,-122.107,-4.02157
138.25,49.4063,-121.648,-3.91185
138.367,49.988,-121.197,-3.81318
138.483,50.5691,-120.751,-3.70284
138.6,51.1512,-120.332,-3.59067
138.717,51.7329,-119.908,-3.66211
138.833,52.3149,-119.482,-3.66088
138.95,52.8982,-119.063,-3.62219
139.067,53.4778,-118.645,-3.60479
139.183,54.0583,-118.229,-3.46723
139.3,54.6385,-117.829,-3.36816
139.417,55.2188,-117.441,-3.31616
139.533,55.8004,-117.051,-3.39088
139.65,56.3825,-116.649,-3.3745
139.767,56.965,-116.274,-3.20951
139.883,57.5483,-115.9,-3.14196
140,58.128,-115.544,-3.07482
140.117,58.7077,-115.193,-3.02078
140.233,59.2879,-114.837,-2.82509
140.35,59.8689,-114.484,-3.21054
140.467,60.4504,-114.135,-2.95753
140.583,61.0324,-113.788,-2.96224
140.7,61.6142,-113.45,-2.90164
140.817,62.1975,-113.107,-2.92518
140.933,62.7779,-112.763,-3.02057
141.05,63.3586,-112.418,-2.96919
141.167,63.9391,-112.07,-3.01771
141.283,64.52,-111.701,-3.12702
141.4,65.101,-111.366,-3.04882
141.517,65.683,-111.003,-3.06704
141.633,66.2651,-110.655,-2.94954
141.75,66.8474,-110.307,-2.92314
141.867,67.4275,-109.965,-2.98025
141.983,68.0075,-109.621,-2.87483
142.1,68.5876,-109.29,-2.80584
142.217,69.1687,-108.97,-2.81853
142.333,69.749,-108.638,-2.76081
142.45,70.3311,-108.318,-2.79233
142.567,70.9131,-107.992,-2.79827
142.683,71.4955,-107.67,-2.69735
142.8,72.0753,-107.354,-2.71025
142.917,72.6547,-107.049,-2.56163
143.033,73.2347,-106.739,-2.60974
143.15,73.8158,-106.436,-2.56143
143.267,74.3976,-106.15,-2.3336
143.383,74.9796,-105.882,-2.37433
143.5,75.5619,-105.611,-2.27526
143.617,76.1447,-105.349,-2.20259
143.733,76.7245,-105.087,-2.29184
143.85,77.3055,-104.818,-2.32295
143.967,77.8868,-104.554,-2.16124
144.083,78.4681,-104.295,-2.19829
144.2,79.0507,-104.039,-2.26912
144.317,79.6333,-103.764,-2.36758
144.433,80.2159,-103.499,-2.17598
144.55,80.7991,-103.253,-1.89206
144.667,81.379,-103.01,-2.31886
144.783,81.9602,-102.784,-1.85234
144.9,82.5414,-102.554,-2.11805
145.017,83.1237,-102.309,-2.02204
145.133,83.7062,-102.059,-2.16922
145.25,84.2888,-101.828,-1.71335
145.367,84.8718,-101.561,-2.58558
145.483,85.4542,-101.203,-2.86623
145.6,86.0341,-100.985,-1.56822
145.717,86.6146,-100.747,-2.46092
145.833,87.1958,-100.58,-0.0221078
145.95,87.7778,-100.528,-9.27973
146.067,88.3601,-100.189,-0.091911
146.183,88.9427,-100.1,-3.74051
146.3,89.5258,-99.6747,-3.10123
146.417,90.1071,-99.5538,-1.60425
146.533,90.6878,-99.3437,-1.69145
146.65,91.2688,-99.1292,-1.94037
146.767,91.8495,-98.8918,-1.62246
146.883,92.4315,-98.6874,-1.93566
147,93.014,-98.4611,-1.89942
147.117,93.5968,-98.2544,-1.72645
147.233,94.1795,-98.0678,-1.60036
147.35,94.7594,-97.8836,-1.54836
147.467,95.3398,-97.7139,-1.45993
147.583,95.9202,-97.5257,-1.67732
147.7,96.5019,-97.3412,-1.52421
147.817,97.0836,-97.1709,-1.4239
147.933,97.666,-97.0211,-1.30415
148.05,98.2487,-96.8571,-1.52093
148.167,98.8312,-96.6813,-1.4849
148.283,99.4114,-96.4986,-1.54939
148.4,99.9921,-96.3171,-1.6067
148.517,100.573,-96.13,-1.46505
148.633,101.154,-95.9558,-1.52994
148.75,101.736,-95.79,-1.35799
148.867,102.318,-95.6246,-1.40446
148.983,102.901,-95.4654,-1.29289
149.1,103.482,-95.3222,-1.27365
149.217,104.062,-95.1632,-1.32749
149.333,104.643,-94.9984,-1.45359
149.45,105.224,-94.83,-1.43803
149.567,105.805,-94.6543,-1.54386
149.683,106.387,-94.4907,-1.35676
149.8,106.969,-94.3134,-1.57722
149.917,107.551,-94.1277,-1.67569
150.033,108.131,-93.9383,-1.62697
150.15,108.711,-93.7521,-1.56904
150.267,109.292,-93.5647,-1.59258
150.383,109.873,-93.3794,-1.60077
150.5,110.455,-93.1878,-1.55348
150.617,111.037,-93.014,-1.48102
150.733,111.619,-92.8279,-1.5676
150.85,112.201,-92.659,-1.47672
150.967,112.782,-92.4942,-1.29924
151.083,113.363,-92.3275,-1.53895
151.2,113.944,-92.1523,-1.48634
151.317,114.526,-91.9822,-1.47487
151.433,115.108,-91.823,-1.27857
151.55,115.691,-91.6613,-1.40896
151.667,116.274,-91.4781,-1.96288
151.783,116.855,-91.257,-1.36925
151.9,117.435,-91.1486,-0.961278
152.017,118.016,-90.9752,-2.13974
152.133,118.597,-90.7575,-1.60875
152.25,119.179,-90.6287,-0.439289
152.367,119.761,-90.5482,-1.19709
152.483,120.344,-90.2906,-1.02044
152.6,120.914,-98.2128,166.824
152.717,121.305,-85.3705,-505.621
152.833,121.427,-14.0476,-520.066
152.95,121.437,25.0656,-171.721
153.067,121.433,33.7921,-23.9742
153.183,121.434,35.3704,-13.4006
153.3,121.435,37.2528,-15.6388
153.417,121.432,39.9477,-16.5112
153.533,121.427,41.4836,-12.1736
153.65,121.421,43.631,-17.2019
153.767,121.415,44.2436,-7.36802
153.883,121.408,45.2905,-9.11904
154,121.399,46.2814,-7.53097
154.117,121.389,47.1438,-6.86978
154.233,121.38,47.8938,-6.05016
154.35,121.372,48.4137,-3.039
154.467,121.364,48.6995,-1.83372
154.583,121.357,48.9403,-2.17557
154.7,121.35,49.292,-2.80154
154.817,121.344,49.504,-1.428
154.933,121.338,49.7266,-2.10597
155.05,121.334,49.955,-1.83617
155.167,121.33,50.1472,-1.54631
155.283,121.326,50.3304,-1.55
155.4,121.323,50.4814,-1.15001
155.517,121.32,50.6186,-1.16762
155.633,121.318,50.7645,-1.23558
155.75,121.317,50.9087,-1.22657
155.867,121.316,51.0529,-1.18277
155.983,121.316,51.1871,-1.27611
156.1,121.316,51.3452,-1.45666
156.217,121.316,51.4918,-1.0321
156.333,121.316,51.6547,-1.45133
156.45,121.317,51.812,-1.30722
156.567,121.317,51.9813,-1.44683
156.683,121.319,51.917,1.79523
156.8,121.32,52.5353,0.187916
156.917,121.321,52.3424,-1.08574
157.033,121.323,52.6272,-2.21323
157.15,121.325,52.8137,-1.2409
157.267,121.327,53.0234,-1.67282
157.383,121.328,53.2393,-1.1406
157.5,121.331,53.2706,1.46198
157.617,121.305,38.7723,202.374
157.733,120.982,63.147,-711.039
157.85,120.155,175.378,-1000.99
157.967,118.981,274.316,-624.297
158.083,117.692,320.296,-198.447
158.2,116.425,327.754,25.8833
158.317,115.208,320.518,70.7571
158.433,114.028,313.671,39.0235
158.55,112.862,311.563,-2.01754
158.667,111.695,312.628,-12.5457
158.783,110.523,314.376,-15.2519
158.9,109.349,315.879,-9.52435
159.017,108.178,316.667,-4.64509
159.133,107.007,316.998,-0.761489
159.25,105.836,317.019,-0.691891
159.367,104.669,317.06,-0.32916
159.483,103.505,317.082,-0.118727
159.6,102.338,317.039,1.2192
159.717,101.172,316.774,3.10409
159.833,100.009,316.475,2.20914
159.95,98.8469,316.226,2.33933
160.067,97.6819,315.938,2.67422
160.183,96.5177,315.605,2.99355
160.3,95.3563,315.242,3.34318
160.417,94.1963,314.835,3.53479
160.533,93.0329,314.426,3.57573
160.65,91.8711,314.003,3.85658
160.767,90.7114,313.52,4.16445
160.883,89.5516,313.021,4.42565
161,88.3891,312.489,4.73843
161.117,87.2281,311.919,4.91365
161.233,86.0685,311.34,5.01437
161.35,84.9089,310.747,5.16585
161.467,83.7468,310.123,5.54741
161.583,82.5871,309.458,5.96254
161.7,81.4281,308.749,6.09683
161.817,80.2692,308.02,6.41207
161.933,79.1074,307.254,6.52916
162.05,77.9472,306.483,6.67982
162.167,76.7894,305.675,6.93774
162.283,75.6305,304.862,7.34551
162.4,74.4701,303.98,7.62554
162.517,73.3112,303.085,7.76392
162.633,72.1534,302.174,7.9023
162.75,70.9937,301.239,8.19052
162.867,69.8333,300.274,8.20935
162.983,68.6744,299.294,8.4902
163.1,67.517,298.291,8.65232
163.217,66.3588,297.25,9.21894
163.333,65.1984,296.199,8.98476
163.45,64.0395,295.144,9.20174
163.567,62.8825,294.049,9.18782
163.683,61.7241,292.952,9.53499
163.8,60.564,291.834,9.64635
163.917,59.4056,290.691,9.85105
164.033,58.2487,289.529,10.1098
164.15,57.0902,288.337,10.38
164.267,55.9296,287.13,10.2912
164.383,54.771,285.956,9.9837
164.5,53.6145,284.702,11.1562
164.617,52.4571,283.378,11.1026
164.733,51.2973,282.09,11.0158
164.85,50.1385,280.822,11.0113
164.967,48.9827,279.502,11.8039
165.083,47.8255,278.15,11.4792
165.2,46.6655,276.809,11.5554
165.317,45.5075,275.446,11.7061
165.433,44.3515,274.036,11.9963
165.55,43.1964,272.661,11.7142
165.667,42.0363,271.278,11.991
165.783,40.8784,269.855,12.4221
165.9,39.7216,268.396,12.5118
166.017,38.5672,266.916,12.6313
166.133,37.4083,265.578,10.3542
166.25,36.2501,264.028,14.0515
166.367,35.0934,262.474,13.7498
166.483,33.9391,260.739,13.5259
166.6,32.7811,259.382,11.2176
166.717,31.6231,258.004,16.0617
166.833,30.4668,255.952,14.5711
166.95,29.3125,254.382,18.1677
167.067,28.1591,255.639,-233.541
167.183,27.2171,286.052,307.442
167.3,26.8141,181.072,1098.24
167.417,26.7392,76.7983,585.448
167.533,26.7389,38.6544,143.817
167.65,26.7361,31.7691,28.4838
167.767,26.7316,28.6356,28.3458
167.883,26.7313,25.1338,30.4538
168,26.7337,21.8249,25.342
168.117,26.7394,19.252,19.1801
168.233,26.7452,17.2862,14.9334
168.35,26.752,15.6396,13.6712
168.467,26.7602,14.1071,12.7807
168.583,26.7686,12.7729,10.5053
168.7,26.7774,11.6179,9.41095
168.817,26.7854,10.6685,6.71339
168.933,26.7922,10.0211,4.59637
169.05,26.798,9.51831,5.1945
169.167,26.8029,8.85423,5.1335
169.283,26.8071,8.35615,3.83488
169.4,26.8108,7.88879,4.12637
169.517,26.8143,7.399,4.24428
169.633,26.8176,6.90997,4.00887
169.75,26.8198,6.4557,3.75054
169.867,26.8224,6.01747,3.79025
169.983,26.8244,5.59098,3.62977
170.1,26.8262,5.17472,3.46949
170.217,26.8265,4.77531,3.39272
170.333,26.8273,4.37812,3.40746
170.45,26.8282,3.9838,3.36775
170.567,26.8281,3.58997,3.36386
170.683,26.8282,3.20366,3.31227
170.8,26.8282,2.80424,3.44206
170.917,26.8277,2.41913,3.41954
171.033,26.8271,1.99927,3.80315
171.15,26.8265,1.54463,3.82444
171.267,26.825,1.09845,3.87991
171.383,26.8244,0.643223,3.74911
171.5,26.8244,0.151599,5.37423
171.617,26.8241,-0.431715,3.46375
171.733,26.8233,-0.814217,3.82956
171.85,26.8224,-1.2799,3.08055
171.967,26.822,-1.61527,2.4775
172,26.822,-1.69041,1.80137